{
  "resourceType": "Bundle",
  "id": "practitioner-message-bundle",
  "type": "message",
  "signature": {
    "type": [
      {
        "system": "urn:iso-astm:E1762-95:2013",
        "code": "1.2.840.10065.1.12.1.1",
        "display": "Author's Signature"
      }
    ],
    "when": "2023-09-29T00:00:00Z",
    "who": {
      "reference": "#sender-practitioner"
    },
    "onBehalfOf": {
      "reference": "#receiver-practitioner"
    },
    "targetFormat": "application/fhir+json",
    "sigFormat": "application/signature+json",
    "data": "BASE64_ENCODED_ECDSA_SIGNATURE"
  },
  "entry": [
    {
      "fullUrl": "urn:uuid:message-header-id",
      "resource": {
        "resourceType": "MessageHeader",
        "id": "message-header-id",
        "contained": [
          {
            "resourceType": "Practitioner",
            "id": "sender-practitioner",
            "identifier": [
              {
                "system": "https://www.w3.org/ns/did",
                "value": "did:health:0x3214sender-practitioner"
              }
            ]
          },
          {
            "resourceType": "Practitioner",
            "id": "receiver-practitioner",
            "identifier": [
              {
                "system": "https://www.w3.org/ns/did",
                "value": "did:health:02123x:receiver-practitioner"
              }
            ]
          }
        ],
        "eventCoding": {
          "system": "http://hl7.org/fhir/message-events",
          "code": "practitioner-notification"
        },
        "sender": {
          "reference": "#sender-practitioner"
        },
        "receiver": {
          "reference": "#receiver-practitioner"
        }
      }
    },
    {
      "fullUrl": "urn:uuid:communication-id",
      "resource": {
        "resourceType": "Communication",
        "id": "communication-id",
        "status": "completed",
        "content": [
          {
            "contentString": "I have a patient that I am going to refer to you for a colonoscopy."
          }
        ]
      }
    }
  ]
}
